hall_0_x,hall_0_y,hall_0_z,hall_1_x,hall_1_y,hall_1_z,hall_2_x,hall_2_y,hall_2_z,hall_3_x,hall_3_y,hall_3_z,hall_4_x,hall_4_y,hall_4_z,euler_roll,euler_pitch,euler_yaw,gyro_x,gyro_y,gyro_z
0.45909446477890015,0.4868637025356293,0.1112390011548996,0.7008084654808044,0.6742954850196838,0.6918904781341553,0.7685250639915466,0.4396136403083801,0.5211119651794434,0.31049633026123047,0.7058692574501038,0.7965819835662842,0.31522437930107117,0.3671151399612427,0.7428614497184753,0.6073271036148071,0.7908638119697571,0.13713884353637695,0.16052231192588806,0.8577560186386108,0.45075488090515137
0.4691300392150879,0.49376875162124634,0.11306954175233841,0.6943554878234863,0.6856074333190918,0.7010810375213623,0.7592788934707642,0.42736920714378357,0.5186348557472229,0.3141196370124817,0.6888329982757568,0.8039959669113159,0.320732444524765,0.3709183633327484,0.7422232031822205,0.604955792427063,0.7713893055915833,0.13376881182193756,0.17589163780212402,0.8712238669395447,0.475403368473053
0.47817593812942505,0.5121462345123291,0.12377233803272247,0.6909229159355164,0.6996297836303711,0.6997405886650085,0.7545568346977234,0.4284187853336334,0.49507346749305725,0.3177828788757324,0.6883373856544495,0.818078875541687,0.31656932830810547,0.38064372539520264,0.7324527502059937,0.5980687737464905,0.7578922510147095,0.1328076720237732,0.1917436271905899,0.8827307224273682,0.5002121925354004
0.49096739292144775,0.5313107967376709,0.14563804864883423,0.6933668255805969,0.7240744233131409,0.7049654722213745,0.7536550760269165,0.4205319583415985,0.4854776859283447,0.3194972276687622,0.6766619682312012,0.8373278975486755,0.3236965537071228,0.3829796314239502,0.7307920455932617,0.5978875160217285,0.746523916721344,0.12907254695892334,0.20889119803905487,0.8928878903388977,0.5239002704620361
0.4981990158557892,0.5417689085006714,0.15423667430877686,0.6866044402122498,0.7408382892608643,0.7021042704582214,0.7448675632476807,0.4222574234008789,0.48613008856773376,0.32343295216560364,0.6692643761634827,0.840461790561676,0.3217860162258148,0.4015379548072815,0.7380266785621643,0.5933780074119568,0.7289214134216309,0.1275864541530609,0.22657467424869537,0.9013426303863525,0.548692524433136
0.5112259387969971,0.5551374554634094,0.16993607580661774,0.6761091947555542,0.7612651586532593,0.7032216787338257,0.7343403697013855,0.42842715978622437,0.4776916801929474,0.3220495283603668,0.6645585894584656,0.8575471639633179,0.31792372465133667,0.4101250469684601,0.7318449020385742,0.5903902053833008,0.7132734060287476,0.12846356630325317,0.2455989569425583,0.9092758297920227,0.5733852386474609
0.52122962474823,0.5725655555725098,0.18129314482212067,0.6724672913551331,0.7823386192321777,0.7107153534889221,0.7333275079727173,0.43534111976623535,0.46265867352485657,0.32471680641174316,0.66261887550354,0.8734555840492249,0.3219626545906067,0.40962645411491394,0.7349924445152283,0.5832409262657166,0.697925329208374,0.12791228294372559,0.26451510190963745,0.9166180491447449,0.5968479514122009
0.5273283123970032,0.5875808596611023,0.20045128464698792,0.6640536189079285,0.8076307773590088,0.701866626739502,0.7222282290458679,0.4315519630908966,0.46272018551826477,0.33464306592941284,0.6603410840034485,0.8727415204048157,0.3204098045825958,0.41375499963760376,0.7383328676223755,0.580867350101471,0.6830183863639832,0.13179360330104828,0.2836660146713257,0.9211102724075317,0.6195730566978455
0.5338369607925415,0.5924659967422485,0.21857863664627075,0.6597822308540344,0.8205518126487732,0.7092509269714355,0.7203218936920166,0.4354042410850525,0.43968620896339417,0.33356809616088867,0.6482741832733154,0.8720591068267822,0.3166900873184204,0.4207204282283783,0.738199770450592,0.575127899646759,0.6661556363105774,0.1302603930234909,0.30483880639076233,0.9235418438911438,0.6426416039466858
0.5411556959152222,0.6058743000030518,0.23189155757427216,0.6582703590393066,0.8387308716773987,0.6964672803878784,0.706844687461853,0.4436066448688507,0.4397067725658417,0.326710045337677,0.6474218964576721,0.8663333058357239,0.32163429260253906,0.44066426157951355,0.7379746437072754,0.5699966549873352,0.6510228514671326,0.13459622859954834,0.3261774480342865,0.926287829875946,0.6641995906829834
0.5454924702644348,0.6180474758148193,0.24607010185718536,0.6567949056625366,0.8527547717094421,0.6894015073776245,0.7058963775634766,0.4365714490413666,0.44140008091926575,0.32522469758987427,0.6382184028625488,0.8838471174240112,0.31978753209114075,0.4453170597553253,0.7220391035079956,0.5654948353767395,0.6392694711685181,0.13450400531291962,0.34828028082847595,0.9269826412200928,0.6846222281455994
0.5574473142623901,0.632652223110199,0.2724515497684479,0.6535709500312805,0.8688178658485413,0.6913764476776123,0.6929949522018433,0.4304908215999603,0.4314575791358948,0.33278852701187134,0.6208980679512024,0.8843584656715393,0.31583043932914734,0.4658134877681732,0.7124767899513245,0.5626553297042847,0.6255348920822144,0.1349327713251114,0.3702293038368225,0.9250582456588745,0.7043983340263367
0.5619568228721619,0.64273601770401,0.30101314187049866,0.6560822129249573,0.8828232884407043,0.7044488191604614,0.6827253699302673,0.4360712170600891,0.4262442886829376,0.3361490070819855,0.6022538542747498,0.8843740224838257,0.3148277699947357,0.47424912452697754,0.7057255506515503,0.5566331148147583,0.6099932193756104,0.1338772028684616,0.39369237422943115,0.9236047863960266,0.7236042618751526
0.5697671175003052,0.6582878828048706,0.3230479061603546,0.6541701555252075,0.8947033882141113,0.7044491767883301,0.6756736636161804,0.45055192708969116,0.43141335248947144,0.344461053609848,0.582122802734375,0.8834084868431091,0.3134769797325134,0.4772375226020813,0.7046130895614624,0.5454917550086975,0.5976008176803589,0.13604873418807983,0.41622593998908997,0.9193080067634583,0.7412219047546387
0.575375497341156,0.6736287474632263,0.34136253595352173,0.6566511988639832,0.9103000164031982,0.7073591351509094,0.6760403513908386,0.4491303265094757,0.43238958716392517,0.34435003995895386,0.5685244202613831,0.8868395686149597,0.3058740198612213,0.4752413332462311,0.686394453048706,0.5395005941390991,0.5888732075691223,0.14434659481048584,0.4391351640224457,0.9137784242630005,0.7582392692565918
0.5894230604171753,0.6818053126335144,0.36108964681625366,0.6583679914474487,0.9167178869247437,0.7092717289924622,0.6728535294532776,0.4525192379951477,0.4390079379081726,0.3474266827106476,0.5495677590370178,0.8855446577072144,0.29608941078186035,0.4721857011318207,0.6702994704246521,0.5318623185157776,0.5780748128890991,0.1494854986667633,0.46115243434906006,0.9059226512908936,0.7734609246253967
0.5965293049812317,0.693011999130249,0.36868610978126526,0.660642147064209,0.9298945665359497,0.7047891616821289,0.665076494216919,0.4526863694190979,0.42618516087532043,0.35270625352859497,0.531817615032196,0.8728779554367065,0.28738701343536377,0.4702741205692291,0.6562978029251099,0.5260590314865112,0.5644088387489319,0.1575755774974823,0.4844365417957306,0.8974557518959045,0.788562536239624
0.6104150414466858,0.7053876519203186,0.3903365135192871,0.6641641855239868,0.9422276020050049,0.6824653744697571,0.6586297750473022,0.4585808217525482,0.41826683282852173,0.35149046778678894,0.525551974773407,0.8514661192893982,0.2802448868751526,0.47108444571495056,0.6390621662139893,0.5162851810455322,0.5545707941055298,0.16273784637451172,0.5085616707801819,0.886314868927002,0.8005898594856262
0.6112468838691711,0.715758740901947,0.42076969146728516,0.665049135684967,0.9544332027435303,0.6725013256072998,0.6514945030212402,0.4680785536766052,0.4237981140613556,0.35468190908432007,0.5106423497200012,0.8425332307815552,0.272724449634552,0.46317151188850403,0.6224415302276611,0.5076504945755005,0.5445787310600281,0.16690225899219513,0.5322649478912354,0.8751157522201538,0.8109804391860962
0.6189282536506653,0.72209632396698,0.45066627860069275,0.6692999601364136,0.9671856760978699,0.6620480418205261,0.6491153836250305,0.4755232632160187,0.4157625138759613,0.3563350439071655,0.4932422637939453,0.8233245611190796,0.26405009627342224,0.47210344672203064,0.6024988889694214,0.5033002495765686,0.537234365940094,0.17239099740982056,0.5543646216392517,0.8624006509780884,0.8207070827484131
0.622067391872406,0.7333967685699463,0.4661596119403839,0.6749683022499084,0.9764866828918457,0.660079836845398,0.6432238221168518,0.4809161424636841,0.41932225227355957,0.3568704426288605,0.4701276123523712,0.8146033883094788,0.25519487261772156,0.48742103576660156,0.5835232734680176,0.49645206332206726,0.5237271189689636,0.1784931719303131,0.5763770341873169,0.8483080863952637,0.8288132548332214
0.6251888275146484,0.7394534945487976,0.48664239048957825,0.6768730878829956,0.9834038615226746,0.6527612209320068,0.6403387784957886,0.49596017599105835,0.4248880445957184,0.36796820163726807,0.45338156819343567,0.8128518462181091,0.2489541620016098,0.48682859539985657,0.5771461129188538,0.4893510639667511,0.514129638671875,0.1853305846452713,0.5974768400192261,0.8335502743721008,0.8345451951026917
0.63071608543396,0.7468278408050537,0.5108264684677124,0.6828444600105286,0.987178385257721,0.6440548300743103,0.6441726088523865,0.49025657773017883,0.4101567268371582,0.36938124895095825,0.44030749797821045,0.7991650104522705,0.24059271812438965,0.48497146368026733,0.5594687461853027,0.4794040620326996,0.5059213042259216,0.19070760905742645,0.6186575889587402,0.8166925311088562,0.8390857577323914
0.633608877658844,0.7466709613800049,0.5318858623504639,0.6915125250816345,0.9834083914756775,0.6390761733055115,0.6416455507278442,0.5032961368560791,0.4147017300128937,0.37073203921318054,0.42129024863243103,0.7719519734382629,0.23310516774654388,0.49048736691474915,0.534715473651886,0.4702562987804413,0.49861928820610046,0.19768676161766052,0.639204740524292,0.7983458638191223,0.843026876449585
0.639747142791748,0.7531608939170837,0.5606850385665894,0.700164258480072,0.9852692484855652,0.646181046962738,0.6319413185119629,0.5190625190734863,0.4275830090045929,0.3700520098209381,0.4033548831939697,0.7608194947242737,0.2205936461687088,0.4886435568332672,0.5092759132385254,0.46347662806510925,0.4939185380935669,0.20597101747989655,0.6574667692184448,0.7792412042617798,0.8441577553749084
0.6430703997612,0.7515215277671814,0.5773600935935974,0.7103843688964844,0.976303219795227,0.6370070576667786,0.6339507102966309,0.5338708758354187,0.43568533658981323,0.36898934841156006,0.38667142391204834,0.7336726188659668,0.20888948440551758,0.48788121342658997,0.48547109961509705,0.4564032256603241,0.4870508313179016,0.21465329825878143,0.6761569976806641,0.7586387395858765,0.8435972929000854
0.6367338299751282,0.7492441534996033,0.6001121401786804,0.7150458693504333,0.9793919324874878,0.6314283609390259,0.6318011283874512,0.542367696762085,0.42481037974357605,0.3718014061450958,0.37352076172828674,0.7228760719299316,0.20366400480270386,0.47589972615242004,0.46739596128463745,0.44945794343948364,0.4812445640563965,0.2213718444108963,0.6931941509246826,0.7374324202537537,0.8415812849998474
0.6410648822784424,0.7524082064628601,0.6334124803543091,0.7222257852554321,0.9768765568733215,0.6135342121124268,0.6309170722961426,0.5633792877197266,0.423566073179245,0.37559425830841064,0.3517037630081177,0.7033092379570007,0.19897480309009552,0.46484020352363586,0.444414347410202,0.4410276412963867,0.4786377549171448,0.23150070011615753,0.7098574638366699,0.7160382270812988,0.8387769460678101
0.6412109732627869,0.7567073106765747,0.6584707498550415,0.733075737953186,0.9745789766311646,0.6011716723442078,0.6310038566589355,0.5708369612693787,0.42304497957229614,0.3853561282157898,0.3394468128681183,0.6753920316696167,0.1933390349149704,0.46957725286483765,0.4301990866661072,0.4338042438030243,0.47922924160957336,0.24002060294151306,0.7259020805358887,0.6928523182868958,0.8344267010688782
0.6492404937744141,0.7465205192565918,0.6757696866989136,0.7387664914131165,0.9667965769767761,0.599074125289917,0.6356806755065918,0.5816471576690674,0.443010151386261,0.38185572624206543,0.3246200680732727,0.6507899165153503,0.18290585279464722,0.4669035077095032,0.42235296964645386,0.4283383786678314,0.47933346033096313,0.24712759256362915,0.7406512498855591,0.6704015135765076,0.8286205530166626
