hall_0_x,hall_0_y,hall_0_z,hall_1_x,hall_1_y,hall_1_z,hall_2_x,hall_2_y,hall_2_z,hall_3_x,hall_3_y,hall_3_z,hall_4_x,hall_4_y,hall_4_z,euler_roll,euler_pitch,euler_yaw,gyro_x,gyro_y,gyro_z
0.5014131665229797,0.790550708770752,0.5644047260284424,0.7277458906173706,0.47549301385879517,0.38825348019599915,0.7453266978263855,0.5690371990203857,0.6096417903900146,0.28502869606018066,0.5903152227401733,0.0656951293349266,0.1522616595029831,0.5794615149497986,0.7314465045928955,0.3146386742591858,0.9311871528625488,0.30462926626205444,0.7857030034065247,0.5393314957618713,0.4077697992324829
0.507826566696167,0.7882562875747681,0.5672656893730164,0.721924364566803,0.4655604660511017,0.3759140968322754,0.7338405847549438,0.5736652612686157,0.5841140151023865,0.30034998059272766,0.5745947957038879,0.055787257850170135,0.15868091583251953,0.583931028842926,0.7268241047859192,0.3182951807975769,0.9286009073257446,0.30914416909217834,0.7815091609954834,0.5192248225212097,0.40867874026298523
0.5098581910133362,0.8020360469818115,0.5456109046936035,0.7164849042892456,0.47223612666130066,0.36717602610588074,0.7348865866661072,0.5921589136123657,0.5513468384742737,0.3107197880744934,0.5509695410728455,0.05285138636827469,0.16158674657344818,0.5920707583427429,0.7267517447471619,0.32456454634666443,0.9312849640846252,0.318149209022522,0.7781075835227966,0.499347060918808,0.41085606813430786
0.509598970413208,0.8103504776954651,0.5256704092025757,0.7127629518508911,0.4660891592502594,0.37825334072113037,0.7369722127914429,0.6165672540664673,0.5415986180305481,0.32000014185905457,0.5354719161987305,0.06437308341264725,0.1604643166065216,0.5892850160598755,0.7189900279045105,0.3329032361507416,0.9325180053710938,0.32322514057159424,0.7740094661712646,0.4795151352882385,0.414364755153656
0.5060234665870667,0.8005077838897705,0.5105859041213989,0.7130653262138367,0.4567863345146179,0.3664073944091797,0.7279865741729736,0.6207551956176758,0.5248634219169617,0.3296833038330078,0.5206584334373474,0.06504931300878525,0.1630612164735794,0.5854637622833252,0.6979658007621765,0.3369836211204529,0.9356321096420288,0.3236694037914276,0.767279326915741,0.4571089744567871,0.41744908690452576
0.5128114223480225,0.7992582321166992,0.48886996507644653,0.7093650698661804,0.4457641541957855,0.36016637086868286,0.7219812273979187,0.6282835006713867,0.5098175406455994,0.3415409326553345,0.5088262557983398,0.0541987419128418,0.16624876856803894,0.5819242596626282,0.6922400593757629,0.3434174060821533,0.9354628920555115,0.32725998759269714,0.7598639726638794,0.4349752962589264,0.420986533164978
0.518034040927887,0.8116942644119263,0.4719385802745819,0.7073914408683777,0.44732987880706787,0.3742694556713104,0.721566379070282,0.6482466459274292,0.4941306710243225,0.3486303985118866,0.48539838194847107,0.053550031036138535,0.16664564609527588,0.5853195190429688,0.68918377161026,0.3508807122707367,0.9309312701225281,0.3341566324234009,0.7507482767105103,0.41378048062324524,0.42451217770576477
0.5224397778511047,0.8167092800140381,0.4641662836074829,0.6975418329238892,0.4506456255912781,0.36962395906448364,0.7220419049263,0.6523205041885376,0.4663183391094208,0.3536357879638672,0.48064127564430237,0.05261360853910446,0.16952542960643768,0.5810434222221375,0.6894243955612183,0.36058688163757324,0.9317265748977661,0.3353756368160248,0.7406623363494873,0.3933684229850769,0.4286358058452606
0.5314981937408447,0.8146102428436279,0.4448125958442688,0.6994689106941223,0.4426135718822479,0.3587859869003296,0.7180488705635071,0.6634561419487,0.43796032667160034,0.36590346693992615,0.4625049829483032,0.0627211406826973,0.17330314218997955,0.5722491145133972,0.6892670392990112,0.3665531873703003,0.9291169047355652,0.3375135362148285,0.7319504618644714,0.37253668904304504,0.4327767789363861
0.5315250158309937,0.8117932081222534,0.42600274085998535,0.7016029953956604,0.44768238067626953,0.3587419092655182,0.7166889309883118,0.6665074825286865,0.42221349477767944,0.37497687339782715,0.44296807050704956,0.06439922749996185,0.17863744497299194,0.5691766738891602,0.6824349761009216,0.37433451414108276,0.924224317073822,0.3414376974105835,0.7197743058204651,0.35151994228363037,0.4375267028808594
0.5331933498382568,0.8088945746421814,0.40916121006011963,0.6989714503288269,0.450670063495636,0.3455617129802704,0.7122732400894165,0.6747226715087891,0.41662660241127014,0.38679009675979614,0.4257519543170929,0.06655430048704147,0.18091972172260284,0.5599444508552551,0.67011559009552,0.38196590542793274,0.9187015891075134,0.3423546850681305,0.7057905197143555,0.3307981491088867,0.44260331988334656
0.5382967591285706,0.7993742823600769,0.40656542778015137,0.6978292465209961,0.4511914849281311,0.3420170843601227,0.7061960101127625,0.6749923229217529,0.3915694057941437,0.39729565382003784,0.41055428981781006,0.08218928426504135,0.18006198108196259,0.5534840226173401,0.6636162400245667,0.39334240555763245,0.914313554763794,0.3435908555984497,0.6930249929428101,0.31257930397987366,0.44867339730262756
0.5383616089820862,0.7868329882621765,0.38087335228919983,0.6932634115219116,0.46567878127098083,0.34541070461273193,0.7014553546905518,0.6876819133758545,0.38133662939071655,0.4051591157913208,0.3822650611400604,0.09605085104703903,0.1851499080657959,0.5448724627494812,0.6542499661445618,0.4031504690647125,0.9094147086143494,0.3488123118877411,0.6785311102867126,0.29394155740737915,0.4546489417552948
0.542655885219574,0.7736819386482239,0.37025684118270874,0.6971699595451355,0.4744367301464081,0.34880322217941284,0.7019808292388916,0.6893528699874878,0.3560269773006439,0.4109971821308136,0.36568960547447205,0.10270969569683075,0.1899789720773697,0.5438541769981384,0.6351481080055237,0.41335058212280273,0.9046831130981445,0.3500148057937622,0.6628285050392151,0.2752726376056671,0.46024614572525024
0.5457581281661987,0.7648895382881165,0.3473500907421112,0.6954066753387451,0.48519083857536316,0.3455846607685089,0.7014696002006531,0.7061055898666382,0.33122575283050537,0.4175548851490021,0.34992149472236633,0.11590021103620529,0.19666160643100739,0.5403186678886414,0.6265677213668823,0.4239094853401184,0.8935979604721069,0.3489103615283966,0.645698070526123,0.25818172097206116,0.467448353767395
0.5516641139984131,0.7484701871871948,0.3424373269081116,0.6901651620864868,0.49864089488983154,0.3282848000526428,0.6944950819015503,0.7260010838508606,0.32583087682724,0.42977175116539,0.3304613530635834,0.13498559594154358,0.1951344609260559,0.5366605520248413,0.6225042939186096,0.43851417303085327,0.8834604024887085,0.3502664268016815,0.6289715766906738,0.2418096512556076,0.4744194447994232
0.5483485460281372,0.7266331315040588,0.3345259130001068,0.6849440336227417,0.49791041016578674,0.32460638880729675,0.6940043568611145,0.7283363342285156,0.30535826086997986,0.43482404947280884,0.3075709640979767,0.15162517130374908,0.19411997497081757,0.5312683582305908,0.6018457412719727,0.45019012689590454,0.878139317035675,0.3509733974933624,0.6103481650352478,0.22761686146259308,0.48152726888656616
0.5446938872337341,0.7137017846107483,0.32007652521133423,0.6930170655250549,0.49942663311958313,0.3437533974647522,0.6886334419250488,0.7408465147018433,0.2806954085826874,0.44553184509277344,0.2880057692527771,0.17008957266807556,0.19896265864372253,0.5222529172897339,0.5788543820381165,0.46118611097335815,0.8697803616523743,0.34722021222114563,0.5918477773666382,0.21311283111572266,0.48913246393203735
0.547007143497467,0.7039298415184021,0.30983301997184753,0.6913464665412903,0.503852903842926,0.33926552534103394,0.6855470538139343,0.7416972517967224,0.27119114995002747,0.4553835093975067,0.2783917486667633,0.19468452036380768,0.19763746857643127,0.5085148215293884,0.553402304649353,0.47168099880218506,0.8622654676437378,0.3465995490550995,0.5735071897506714,0.20019567012786865,0.496656209230423
0.5459227561950684,0.6820505261421204,0.296041876077652,0.6963193416595459,0.5137664079666138,0.34789007902145386,0.6859814524650574,0.7435644865036011,0.2637527585029602,0.46710243821144104,0.2608512341976166,0.19663895666599274,0.19604124128818512,0.49765917658805847,0.5425317287445068,0.48154208064079285,0.8525416254997253,0.34631481766700745,0.555847704410553,0.18739324808120728,0.5052633285522461
0.5474914908409119,0.6654903888702393,0.28420600295066833,0.7039533853530884,0.5195599794387817,0.34302613139152527,0.6824012398719788,0.7442736029624939,0.24190016090869904,0.46945077180862427,0.23860299587249756,0.21958062052726746,0.20025907456874847,0.48350846767425537,0.5239014625549316,0.49261125922203064,0.8418846130371094,0.347643107175827,0.5368449091911316,0.1763175129890442,0.5133819580078125
0.5514169931411743,0.6532505750656128,0.2692283093929291,0.7071433663368225,0.5271372199058533,0.36703434586524963,0.6808754801750183,0.7576630711555481,0.23042820394039154,0.47754189372062683,0.21839481592178345,0.23058763146400452,0.2091827541589737,0.475897878408432,0.5004805326461792,0.5009915828704834,0.8321947455406189,0.34677252173423767,0.5169345736503601,0.1668124794960022,0.5207462906837463
0.5500432848930359,0.6356774568557739,0.2609090805053711,0.7124935388565063,0.5480409860610962,0.37737932801246643,0.6763089895248413,0.7661229968070984,0.22439196705818176,0.48255467414855957,0.20633001625537872,0.2533223330974579,0.2111700475215912,0.4451866149902344,0.48974353075027466,0.5142221450805664,0.8205548524856567,0.34376662969589233,0.4973435401916504,0.15763655304908752,0.5297001004219055
0.5508275628089905,0.6236301064491272,0.24541126191616058,0.7148901224136353,0.55897456407547,0.38742226362228394,0.6810324788093567,0.7613506317138672,0.20878839492797852,0.4865545928478241,0.19172602891921997,0.2895285487174988,0.21273745596408844,0.4298107624053955,0.4582233428955078,0.525946319103241,0.8052105903625488,0.3411460220813751,0.47862377762794495,0.14977672696113586,0.5379157066345215
0.5543637275695801,0.6053153276443481,0.23719671368598938,0.7214645743370056,0.5777617692947388,0.3927234709262848,0.6756030917167664,0.7656962275505066,0.19865988194942474,0.49611201882362366,0.18251921236515045,0.3092282712459564,0.21596722304821014,0.4183741807937622,0.44811367988586426,0.5343545079231262,0.7914482355117798,0.33937394618988037,0.45893460512161255,0.14408889412879944,0.5459609031677246
0.5573029518127441,0.5856269001960754,0.22880835831165314,0.7279671430587769,0.5821389555931091,0.3972005248069763,0.6779831051826477,0.7773497700691223,0.20118549466133118,0.4977429211139679,0.17861619591712952,0.339281290769577,0.216652974486351,0.40817514061927795,0.43179604411125183,0.5433703064918518,0.7796078324317932,0.3326356112957001,0.4381062984466553,0.1395394206047058,0.5540531277656555
0.5532369613647461,0.5674912929534912,0.22312556207180023,0.7375932931900024,0.5957754254341125,0.40410226583480835,0.6762827634811401,0.7871670126914978,0.1971369832754135,0.4996242821216583,0.17119653522968292,0.35443711280822754,0.2205858677625656,0.38820508122444153,0.41430869698524475,0.5561261177062988,0.7679830193519592,0.32683026790618896,0.41798922419548035,0.13562195003032684,0.5611676573753357
0.5482702255249023,0.5481827259063721,0.21681807935237885,0.737796425819397,0.6050942540168762,0.41724711656570435,0.6742406487464905,0.792482852935791,0.1929531991481781,0.49925145506858826,0.15544350445270538,0.38951295614242554,0.21775704622268677,0.36520862579345703,0.3832572102546692,0.5666868686676025,0.7536392211914062,0.32728731632232666,0.3988223075866699,0.1330595314502716,0.5693835616111755
0.5487972497940063,0.5331444144248962,0.23238621652126312,0.745460033416748,0.6175090074539185,0.44032061100006104,0.6735248565673828,0.7860533595085144,0.19306451082229614,0.5013054609298706,0.15075063705444336,0.41788914799690247,0.22116003930568695,0.35926127433776855,0.3409464657306671,0.5766587853431702,0.7438324093818665,0.3232351839542389,0.3784579038619995,0.13187989592552185,0.5770931243896484
0.5485953688621521,0.5219777822494507,0.21425719559192657,0.747633695602417,0.6379091143608093,0.46512115001678467,0.6741414666175842,0.7842921614646912,0.1886616349220276,0.49939796328544617,0.14245018362998962,0.43734076619148254,0.22225841879844666,0.35799235105514526,0.326486200094223,0.5892418026924133,0.7345768213272095,0.31753844022750854,0.35996171832084656,0.13207757472991943,0.5834932327270508
