hall_0_x,hall_0_y,hall_0_z,hall_1_x,hall_1_y,hall_1_z,hall_2_x,hall_2_y,hall_2_z,hall_3_x,hall_3_y,hall_3_z,hall_4_x,hall_4_y,hall_4_z,euler_roll,euler_pitch,euler_yaw,gyro_x,gyro_y,gyro_z
0.5297104716300964,0.2808245122432709,0.706505298614502,0.7421714067459106,0.9528676271438599,0.22891052067279816,0.85550856590271,0.8343257904052734,0.7262135148048401,0.38442039489746094,0.6639951467514038,0.6877031326293945,0.22498899698257446,0.4300362765789032,0.3057766556739807,0.4978958070278168,0.6730950474739075,0.39599141478538513,0.018964117392897606,0.636204183101654,0.7309831380844116
0.5193246006965637,0.2748083472251892,0.6979520916938782,0.7518545985221863,0.9374059438705444,0.21955038607120514,0.8549919724464417,0.8208051323890686,0.7006583213806152,0.38601699471473694,0.6484435200691223,0.6806138157844543,0.2310200035572052,0.41903167963027954,0.2793230414390564,0.49002599716186523,0.6859887838363647,0.3972284495830536,0.011882055550813675,0.6186705231666565,0.7478408217430115
0.515814483165741,0.270647257566452,0.6910257935523987,0.7592848539352417,0.9219220876693726,0.2260754406452179,0.8643845915794373,0.8049834370613098,0.6749587059020996,0.38700464367866516,0.6447077989578247,0.6818968057632446,0.23489700257778168,0.4127843379974365,0.26667770743370056,0.48346662521362305,0.7078808546066284,0.4006746709346771,0.006423470098525286,0.5997665524482727,0.7628833651542664
0.5082688331604004,0.25595614314079285,0.6889178156852722,0.7609215974807739,0.9031541347503662,0.24454428255558014,0.870373010635376,0.7992042899131775,0.6425489783287048,0.3876064717769623,0.6329835653305054,0.6789977550506592,0.23653824627399445,0.3978423476219177,0.2430390566587448,0.47427648305892944,0.7232054471969604,0.4032128155231476,0.002734030829742551,0.5804750919342041,0.7782849073410034
0.5002648234367371,0.26128262281417847,0.6745111346244812,0.7653064727783203,0.8922333121299744,0.2459331899881363,0.878033459186554,0.7917121648788452,0.6210291385650635,0.3897551894187927,0.6304939389228821,0.6654447913169861,0.23469887673854828,0.3739345371723175,0.20479357242584229,0.46761682629585266,0.7400988936424255,0.40692970156669617,0.0004267617769073695,0.5604283213615417,0.7929692268371582
0.5043089389801025,0.2507590651512146,0.6736218333244324,0.7738214135169983,0.8757596015930176,0.2514115571975708,0.8790906071662903,0.7730869054794312,0.5964540839195251,0.38336849212646484,0.617476761341095,0.6532899737358093,0.236638605594635,0.36815857887268066,0.18648488819599152,0.45880600810050964,0.7573397159576416,0.41129016876220703,0.0,0.5394095778465271,0.8065480589866638
0.5005943179130554,0.24438096582889557,0.6677269339561462,0.7804653644561768,0.8672940731048584,0.2579690217971802,0.8760699033737183,0.7686819434165955,0.5752890706062317,0.38288700580596924,0.6127756237983704,0.650614857673645,0.24464212357997894,0.3624994158744812,0.16251158714294434,0.450376033782959,0.7733498811721802,0.4132675230503082,0.0008606810588389635,0.5184300541877747,0.8177841901779175
0.5038448572158813,0.24321086704730988,0.6540853977203369,0.7905344367027283,0.8533612489700317,0.2485048621892929,0.881058394908905,0.7563021779060364,0.5562842488288879,0.3771979510784149,0.5965783596038818,0.6512325406074524,0.25011417269706726,0.3537660837173462,0.15226727724075317,0.44381409883499146,0.7900798916816711,0.41295307874679565,0.003439598949626088,0.49855875968933105,0.829140841960907
0.49619847536087036,0.23490044474601746,0.6351941823959351,0.7991770505905151,0.8385855555534363,0.25497519969940186,0.882209837436676,0.752173900604248,0.5231970548629761,0.3765996992588043,0.5760362148284912,0.6364071369171143,0.25598621368408203,0.33402276039123535,0.13566385209560394,0.43927547335624695,0.8063797354698181,0.4135895073413849,0.006875132210552692,0.4774877429008484,0.8388082385063171
0.49087992310523987,0.23512984812259674,0.6226024031639099,0.8078380823135376,0.8195034265518188,0.276293009519577,0.8834035396575928,0.7356230616569519,0.48850417137145996,0.37807247042655945,0.5519762635231018,0.6323508024215698,0.2536381185054779,0.32981374859809875,0.1101028099656105,0.43404293060302734,0.8254327178001404,0.415903240442276,0.011808497831225395,0.4566537141799927,0.8475371599197388
0.48689091205596924,0.24335280060768127,0.6086689233779907,0.8114496469497681,0.8086498379707336,0.28954559564590454,0.8834291100502014,0.7266339659690857,0.4613107442855835,0.3707752823829651,0.5339255928993225,0.6218034029006958,0.2495635747909546,0.3036109209060669,0.0986567810177803,0.42546457052230835,0.8417753577232361,0.41634249687194824,0.01969199813902378,0.43600842356681824,0.8554462194442749
0.4875222444534302,0.2436545044183731,0.6034871339797974,0.8187246918678284,0.7795168161392212,0.2966751158237457,0.8844742774963379,0.7249757647514343,0.4360347092151642,0.36793091893196106,0.5097096562385559,0.6141815185546875,0.2507483959197998,0.28768157958984375,0.08574283868074417,0.4180857837200165,0.8584482073783875,0.41246098279953003,0.027722276747226715,0.415763258934021,0.8610506057739258
0.48022982478141785,0.2453814446926117,0.6010832190513611,0.8229238986968994,0.7703028321266174,0.3072066307067871,0.8833863139152527,0.7140254378318787,0.41515833139419556,0.36736536026000977,0.4831092059612274,0.6064612865447998,0.2530818581581116,0.2786581218242645,0.058829765766859055,0.40930017828941345,0.8706233501434326,0.40931689739227295,0.038335103541612625,0.39442840218544006,0.865630567073822
0.47312241792678833,0.2401120662689209,0.5892959833145142,0.827300488948822,0.7462722659111023,0.3262508511543274,0.875633955001831,0.7070531249046326,0.38386502861976624,0.3620848059654236,0.46485215425491333,0.5946958065032959,0.25232934951782227,0.26964136958122253,0.05379556119441986,0.40403151512145996,0.8861153721809387,0.4044354557991028,0.049982406198978424,0.3745327889919281,0.8693124651908875
0.46984294056892395,0.24481332302093506,0.5654336214065552,0.8266602158546448,0.7243199944496155,0.35275018215179443,0.8799245953559875,0.6865085363388062,0.3586377799510956,0.36172279715538025,0.45141303539276123,0.5806963443756104,0.2529521882534027,0.26400822401046753,0.028372567147016525,0.39693909883499146,0.897516667842865,0.40283769369125366,0.063054658472538,0.3557230830192566,0.870854914188385
0.4689846932888031,0.2528771460056305,0.5491015911102295,0.833899199962616,0.7103580832481384,0.3705885410308838,0.8742101788520813,0.6731511354446411,0.34221792221069336,0.3576911985874176,0.43975332379341125,0.5662057399749756,0.25123119354248047,0.2494707703590393,0.035476721823215485,0.3895881772041321,0.9101349115371704,0.3969925045967102,0.07734129577875137,0.3367234766483307,0.8706913590431213
0.46906349062919617,0.26432645320892334,0.5322500467300415,0.8394532799720764,0.6899830102920532,0.38872382044792175,0.8719989657402039,0.6629796028137207,0.3273053765296936,0.35608550906181335,0.42989009618759155,0.5660702586174011,0.2551369369029999,0.23734794557094574,0.015968378633260727,0.38530847430229187,0.9215649366378784,0.39458557963371277,0.0922255665063858,0.31813427805900574,0.8709825873374939
0.461179256439209,0.269066721200943,0.5105504989624023,0.8460943102836609,0.6766713261604309,0.39286816120147705,0.8741331696510315,0.6519497036933899,0.2963969111442566,0.3620188236236572,0.4187132716178894,0.5532417893409729,0.2539471387863159,0.21952123939990997,0.01654629223048687,0.38085952401161194,0.9328603148460388,0.39333173632621765,0.10937537997961044,0.2995505928993225,0.8694711327552795
0.46177366375923157,0.2852621078491211,0.49702930450439453,0.8566861152648926,0.6645486950874329,0.41443490982055664,0.8712053298950195,0.624521791934967,0.27762526273727417,0.3575904071331024,0.3996606767177582,0.5313015580177307,0.2444784939289093,0.21213315427303314,0.005602160003036261,0.38032931089401245,0.9460561275482178,0.389719158411026,0.1279308795928955,0.28233402967453003,0.8653373718261719
0.4588632881641388,0.299893319606781,0.49002307653427124,0.85859614610672,0.6495688557624817,0.44192764163017273,0.8625521659851074,0.6132999658584595,0.2533939480781555,0.3551957309246063,0.3801652789115906,0.5293475389480591,0.2514926493167877,0.19231829047203064,0.0044708154164254665,0.37687647342681885,0.9559124708175659,0.38466301560401917,0.14728032052516937,0.2659313380718231,0.8604699373245239
0.4532657861709595,0.31129732728004456,0.47719675302505493,0.862633228302002,0.6283824443817139,0.4609832167625427,0.8547403216362,0.5978452563285828,0.2427688091993332,0.35211923718452454,0.3685851991176605,0.508076548576355,0.24915997684001923,0.18792249262332916,0.004333151038736105,0.3729151487350464,0.9628955125808716,0.3799072504043579,0.1688612997531891,0.25053486227989197,0.8543978333473206
0.4481480121612549,0.3167232871055603,0.4595913589000702,0.8694342374801636,0.6041200160980225,0.47817307710647583,0.851521909236908,0.5795590877532959,0.22729367017745972,0.34870657324790955,0.3531842827796936,0.4933074414730072,0.2464815080165863,0.18429520726203918,0.012187940068542957,0.3685396611690521,0.9701914191246033,0.37065714597702026,0.1901184320449829,0.23543529212474823,0.8464677929878235
0.44316357374191284,0.3279317021369934,0.4474045932292938,0.8765686750411987,0.5807803273200989,0.4994067847728729,0.8439511060714722,0.5648851990699768,0.2061794251203537,0.3478393256664276,0.32613930106163025,0.46778690814971924,0.23849591612815857,0.17390567064285278,0.007074227090924978,0.36677858233451843,0.9761821031570435,0.3617294728755951,0.21281687915325165,0.22164854407310486,0.8381463885307312
0.43695130944252014,0.3445025086402893,0.4376070499420166,0.8830470442771912,0.5687834024429321,0.5161356925964355,0.8428150415420532,0.5511050224304199,0.1998826116323471,0.34951290488243103,0.3015231192111969,0.45463302731513977,0.23461277782917023,0.1663741171360016,0.0,0.3687978684902191,0.9820498824119568,0.35409024357795715,0.23572422564029694,0.20963364839553833,0.828233003616333
0.44008103013038635,0.3487277030944824,0.42766082286834717,0.8818017840385437,0.5481941103935242,0.5348686575889587,0.8309572339057922,0.5440713763237,0.19121408462524414,0.3446405231952667,0.2806367576122284,0.44660744071006775,0.22799405455589294,0.1551360785961151,0.0019997814670205116,0.36731112003326416,0.9857162237167358,0.34608274698257446,0.25926873087882996,0.19791346788406372,0.8176242113113403
0.43832045793533325,0.37122952938079834,0.4099726974964142,0.8873668909072876,0.5373344421386719,0.5593022108078003,0.8225182294845581,0.5222198963165283,0.17766305804252625,0.3407844305038452,0.26699456572532654,0.4213133454322815,0.23016062378883362,0.1498793661594391,0.017590584233403206,0.3657488226890564,0.9851894974708557,0.3386229872703552,0.2843121886253357,0.18696318566799164,0.8063427209854126
0.4389455020427704,0.3833048641681671,0.40055936574935913,0.8934832215309143,0.5169627666473389,0.5908428430557251,0.8146486282348633,0.5091023445129395,0.16026100516319275,0.3391495943069458,0.25429680943489075,0.4126400947570801,0.22492289543151855,0.13404689729213715,0.0157448910176754,0.3680988550186157,0.9893983602523804,0.3299713730812073,0.30968108773231506,0.1787598878145218,0.7932146787643433
0.4405311644077301,0.3927839398384094,0.3959892690181732,0.8967229127883911,0.49188199639320374,0.6239138245582581,0.8071167469024658,0.5029239654541016,0.14154650270938873,0.3354276716709137,0.23405230045318604,0.39847326278686523,0.22204281389713287,0.12942050397396088,0.02249862067401409,0.37010401487350464,0.9881923794746399,0.3217753767967224,0.33560633659362793,0.17082007229328156,0.7779295444488525
0.442364901304245,0.40202805399894714,0.38315296173095703,0.9002819657325745,0.4865739047527313,0.6345105171203613,0.7957978248596191,0.4811900556087494,0.12952999770641327,0.3321668207645416,0.2178516536951065,0.37614431977272034,0.21678584814071655,0.12362384796142578,0.0367019958794117,0.37240710854530334,0.9897410273551941,0.31201714277267456,0.3615926206111908,0.1638360172510147,0.7630669474601746
0.43963542580604553,0.4223613440990448,0.372661292552948,0.8977494239807129,0.476522296667099,0.6633032560348511,0.7826231718063354,0.46187853813171387,0.12937332689762115,0.32811564207077026,0.2077745497226715,0.35976019501686096,0.21755698323249817,0.11721619218587875,0.05387132242321968,0.37319937348365784,0.9886143207550049,0.3039678633213043,0.3881736993789673,0.15782448649406433,0.7462733387947083
