hall_0_x,hall_0_y,hall_0_z,hall_1_x,hall_1_y,hall_1_z,hall_2_x,hall_2_y,hall_2_z,hall_3_x,hall_3_y,hall_3_z,hall_4_x,hall_4_y,hall_4_z,euler_roll,euler_pitch,euler_yaw,gyro_x,gyro_y,gyro_z
0.4747021496295929,0.4138915240764618,0.4003753662109375,0.848895788192749,0.7402380704879761,0.9557145833969116,0.6663995981216431,0.3196432590484619,0.584973931312561,0.2615584135055542,0.6550166010856628,0.4766845107078552,0.1368669718503952,0.01721363328397274,0.29808858036994934,0.5876840949058533,0.5058318376541138,0.08254383504390717,0.8714698553085327,0.4455888867378235,0.639308750629425
0.4695383906364441,0.4017193913459778,0.39966443181037903,0.854900062084198,0.735632598400116,0.9389119148254395,0.6609930396080017,0.3195250332355499,0.6110278964042664,0.2556129992008209,0.644734263420105,0.508699357509613,0.12858818471431732,0.0163884274661541,0.26637527346611023,0.5851175785064697,0.509675145149231,0.09153231978416443,0.8693808317184448,0.428568959236145,0.6305647492408752
0.467580646276474,0.3851269483566284,0.38626009225845337,0.8574832677841187,0.734329342842102,0.9252448678016663,0.6514387130737305,0.3149257302284241,0.6278154850006104,0.25649017095565796,0.6306071281433105,0.5344963669776917,0.12461941689252853,0.011595302261412144,0.24486804008483887,0.583663821220398,0.5091933012008667,0.10149312019348145,0.8629087805747986,0.41078615188598633,0.6200606226921082
0.4634568989276886,0.3677685260772705,0.37767890095710754,0.8645843863487244,0.7209089994430542,0.9273741245269775,0.6442931890487671,0.3144049048423767,0.6425224542617798,0.2511219084262848,0.6212572455406189,0.5519775152206421,0.12276656180620193,0.01559029147028923,0.21544550359249115,0.5840889811515808,0.5132420659065247,0.10904821753501892,0.8556817770004272,0.39285144209861755,0.6101318597793579
0.4627542793750763,0.3623163402080536,0.35415858030319214,0.8745948076248169,0.7166404128074646,0.9147933721542358,0.6413079500198364,0.32409781217575073,0.6548426747322083,0.2499818205833435,0.6076394319534302,0.5893412828445435,0.12133871763944626,0.016161372885107994,0.19943681359291077,0.5788529515266418,0.520287036895752,0.11928484588861465,0.8475703001022339,0.3754100501537323,0.599105179309845
0.46341249346733093,0.34902018308639526,0.34184300899505615,0.8871380686759949,0.7010436058044434,0.8955084681510925,0.634738564491272,0.31553664803504944,0.6831634640693665,0.2468784600496292,0.5918552875518799,0.616640567779541,0.10653088986873627,0.022671544924378395,0.1787339448928833,0.5742142200469971,0.5260046720504761,0.12486223131418228,0.8380513787269592,0.35918036103248596,0.5879828333854675
0.4565443992614746,0.33641257882118225,0.33226972818374634,0.8938579559326172,0.6926795244216919,0.8818954229354858,0.6267043948173523,0.31721553206443787,0.6790865063667297,0.23839803040027618,0.5637856125831604,0.6426793336868286,0.10339920967817307,0.040205858647823334,0.1469971388578415,0.5704455375671387,0.531674325466156,0.13530680537223816,0.8272427916526794,0.34286707639694214,0.5779067277908325
0.4480147063732147,0.3200744390487671,0.33522313833236694,0.9046115279197693,0.6897594928741455,0.8605958819389343,0.6234909892082214,0.31574714183807373,0.6921433806419373,0.23861311376094818,0.5550985932350159,0.6733480095863342,0.0981881320476532,0.04938775300979614,0.12020781636238098,0.5691001415252686,0.5365839600563049,0.14646027982234955,0.8147411942481995,0.32806286215782166,0.5681397914886475
0.4470045864582062,0.3051658868789673,0.32546329498291016,0.909416675567627,0.675295352935791,0.8440260291099548,0.623192310333252,0.3178553283214569,0.7073279619216919,0.2440178543329239,0.533519983291626,0.698640763759613,0.10263317823410034,0.05196894332766533,0.1113252118229866,0.5624209642410278,0.5442010164260864,0.15752935409545898,0.8009465336799622,0.31233522295951843,0.5578244924545288
0.4460263252258301,0.2951725423336029,0.31027787923812866,0.9164445996284485,0.6592308282852173,0.8254193067550659,0.6218041777610779,0.3126251697540283,0.7179571986198425,0.24051739275455475,0.5151600241661072,0.7024007439613342,0.09599152207374573,0.056276582181453705,0.09891676157712936,0.5562765598297119,0.5536981821060181,0.16807898879051208,0.7859794497489929,0.298687219619751,0.5473571419715881
0.44946911931037903,0.3023797869682312,0.29916688799858093,0.9254432916641235,0.6510716676712036,0.8080574870109558,0.6185006499290466,0.3222079873085022,0.7332457304000854,0.24339619278907776,0.5039449334144592,0.7321842908859253,0.09671876579523087,0.07187647372484207,0.07975902408361435,0.5561721324920654,0.564227819442749,0.17710262537002563,0.7686668038368225,0.2849566340446472,0.5383919477462769
0.4526386857032776,0.2933823764324188,0.29581043124198914,0.9340004324913025,0.6373106241226196,0.7937836050987244,0.6156874895095825,0.336539626121521,0.7419387102127075,0.23987933993339539,0.4858283996582031,0.7482647895812988,0.09395654499530792,0.08209891617298126,0.07607115805149078,0.5506535172462463,0.569689929485321,0.1906072199344635,0.7509083151817322,0.27243533730506897,0.5294195413589478
0.4525747299194336,0.2933318316936493,0.29534682631492615,0.9388783574104309,0.6381852030754089,0.7711694240570068,0.6151849031448364,0.34357160329818726,0.7520401477813721,0.24040710926055908,0.4755864143371582,0.7776407599449158,0.09829907864332199,0.1009308323264122,0.06299078464508057,0.5471835136413574,0.5796629786491394,0.20358048379421234,0.732064425945282,0.26082533597946167,0.5193799138069153
0.4550133943557739,0.2837323844432831,0.28636306524276733,0.9461130499839783,0.6273847222328186,0.7420435547828674,0.6114566922187805,0.3607160747051239,0.7638639807701111,0.2432897835969925,0.4587394893169403,0.783113956451416,0.09673236310482025,0.10544950515031815,0.05005418136715889,0.5392686128616333,0.5887994766235352,0.21749244630336761,0.712888240814209,0.24880333244800568,0.5107738971710205
0.449897438287735,0.2808789312839508,0.28893911838531494,0.9479072690010071,0.6210975050926208,0.7264092564582825,0.6110774874687195,0.37014660239219666,0.7732896208763123,0.24557530879974365,0.43600964546203613,0.8077226877212524,0.093350350856781,0.10804041475057602,0.034571122378110886,0.5372808575630188,0.602814793586731,0.23205502331256866,0.6907613277435303,0.2396898865699768,0.5020215511322021
0.45002609491348267,0.27513551712036133,0.2796800136566162,0.9547851085662842,0.6141637563705444,0.7074494361877441,0.6129435896873474,0.3946458101272583,0.7820911407470703,0.248543843626976,0.41317251324653625,0.8273062109947205,0.09279078990221024,0.12814819812774658,0.01161649264395237,0.530159592628479,0.6133250594139099,0.24964232742786407,0.6693710684776306,0.23212860524654388,0.4932996332645416
0.4529889225959778,0.2664816975593567,0.27223119139671326,0.9543619155883789,0.6070221662521362,0.6821695566177368,0.6134498715400696,0.40153974294662476,0.7893604636192322,0.24824373424053192,0.41362282633781433,0.8323413133621216,0.09734316170215607,0.15687137842178345,0.001776191988028586,0.5259595513343811,0.6254816055297852,0.2593245804309845,0.6470007300376892,0.22495654225349426,0.48457154631614685
0.44860169291496277,0.2662726044654846,0.2762434780597687,0.9574517607688904,0.598373293876648,0.6585161089897156,0.6109607219696045,0.4187218248844147,0.7760657072067261,0.25609204173088074,0.3977946639060974,0.8458741307258606,0.09559448063373566,0.16689391434192657,0.019468408077955246,0.5175177454948425,0.6375464797019958,0.2733166217803955,0.6241902112960815,0.21893145143985748,0.4752306342124939
0.44906577467918396,0.25319018959999084,0.27528756856918335,0.9591115117073059,0.6025466322898865,0.6337307691574097,0.611316978931427,0.42952290177345276,0.7800540924072266,0.2566676735877991,0.38461557030677795,0.8444678783416748,0.09122995287179947,0.17808859050273895,0.014517356641590595,0.5118999481201172,0.6463891267776489,0.28529277443885803,0.599800169467926,0.21445240080356598,0.46791279315948486
0.4482215344905853,0.25237491726875305,0.2649660110473633,0.9640955924987793,0.6031666994094849,0.6136201024055481,0.6183741688728333,0.4437679350376129,0.7870413661003113,0.2645871341228485,0.3614141643047333,0.8591541647911072,0.09007012099027634,0.20045611262321472,0.025139296427369118,0.5042300820350647,0.6580439209938049,0.2945944368839264,0.5742132663726807,0.21030041575431824,0.460106760263443
0.44756317138671875,0.25992104411125183,0.2654271125793457,0.9593506455421448,0.5954114198684692,0.5928095579147339,0.6160188317298889,0.4571276903152466,0.8087425827980042,0.26997488737106323,0.35188934206962585,0.8715177774429321,0.0888645127415657,0.2184363752603531,0.02535215951502323,0.49814078211784363,0.6701287627220154,0.3085166811943054,0.5489692687988281,0.20821063220500946,0.4525284171104431
0.4555458128452301,0.2593289613723755,0.268822580575943,0.9644894003868103,0.583048939704895,0.5645807385444641,0.618873655796051,0.45939797163009644,0.8077226281166077,0.2692071795463562,0.3331852853298187,0.8799837231636047,0.08994758129119873,0.24820548295974731,0.03323276713490486,0.494204580783844,0.6833893656730652,0.3238334059715271,0.5228253602981567,0.2066369652748108,0.4469689726829529
0.45659828186035156,0.2581455111503601,0.27166303992271423,0.9677627682685852,0.5810776948928833,0.5490096807479858,0.6165187358856201,0.47591209411621094,0.8088487386703491,0.2700175344944,0.3167005181312561,0.8828769326210022,0.09044593572616577,0.2663271129131317,0.03441692888736725,0.4892409145832062,0.6971092224121094,0.333937406539917,0.49795371294021606,0.20649957656860352,0.44109204411506653
0.4559592306613922,0.25783228874206543,0.28415799140930176,0.9649429321289062,0.5685158967971802,0.5329971313476562,0.620479166507721,0.5021334886550903,0.8179498314857483,0.2799260914325714,0.2907343804836273,0.8792102932929993,0.09248078614473343,0.2820219099521637,0.009485000744462013,0.482846736907959,0.7108646631240845,0.3480141758918762,0.47202396392822266,0.2071872353553772,0.4355941116809845
0.4553271532058716,0.26562750339508057,0.2928820550441742,0.9652413129806519,0.559646725654602,0.5132719278335571,0.6280932426452637,0.5293556451797485,0.7965274453163147,0.2841133773326874,0.2775094509124756,0.8739292621612549,0.09441222995519638,0.2942313551902771,0.026759294793009758,0.47699522972106934,0.7229633927345276,0.36228424310684204,0.4461546540260315,0.20959505438804626,0.4297889173030853
0.4570739269256592,0.28405410051345825,0.30755797028541565,0.9596162438392639,0.5658260583877563,0.49705439805984497,0.6350307464599609,0.5477359890937805,0.7891899347305298,0.2855759263038635,0.26161593198776245,0.8782806992530823,0.09650731086730957,0.3126855790615082,0.021185724064707756,0.4696834087371826,0.7335636615753174,0.37516406178474426,0.41924482583999634,0.21320731937885284,0.42599520087242126
0.4542192816734314,0.2972896695137024,0.311248779296875,0.9558696746826172,0.5564302802085876,0.46817201375961304,0.6420772671699524,0.5574620366096497,0.7981205582618713,0.2903750538825989,0.24533876776695251,0.8766955137252808,0.09709735214710236,0.33507126569747925,0.03811908885836601,0.46187523007392883,0.751462996006012,0.3862321674823761,0.393088698387146,0.21659789979457855,0.4221493899822235
0.45444610714912415,0.3079335689544678,0.3227981925010681,0.9601938128471375,0.553713858127594,0.44658350944519043,0.6442052721977234,0.5787229537963867,0.8102312684059143,0.2956359386444092,0.23411031067371368,0.8718971014022827,0.09965378791093826,0.3605453372001648,0.04768144339323044,0.45433250069618225,0.7646390795707703,0.39357027411460876,0.3674274981021881,0.22269240021705627,0.41911324858665466
0.44958004355430603,0.3239502012729645,0.3347950279712677,0.9622369408607483,0.5663827657699585,0.41303613781929016,0.6470030546188354,0.6031772494316101,0.8128901124000549,0.3000350892543793,0.22181765735149384,0.8765548467636108,0.09888605028390884,0.382122278213501,0.06750671565532684,0.448945552110672,0.7784069180488586,0.4023820757865906,0.34136974811553955,0.22939488291740417,0.4163799583911896
0.45260167121887207,0.32879772782325745,0.3430817127227783,0.9571148157119751,0.5619611740112305,0.386639267206192,0.6515559554100037,0.6222551465034485,0.8007086515426636,0.3104032278060913,0.20075227320194244,0.8701725602149963,0.096932053565979,0.397880494594574,0.08363393694162369,0.44344061613082886,0.792718231678009,0.4090974032878876,0.31668853759765625,0.23715972900390625,0.41439229249954224
