hall_0_x,hall_0_y,hall_0_z,hall_1_x,hall_1_y,hall_1_z,hall_2_x,hall_2_y,hall_2_z,hall_3_x,hall_3_y,hall_3_z,hall_4_x,hall_4_y,hall_4_z,euler_roll,euler_pitch,euler_yaw,gyro_x,gyro_y,gyro_z
0.43814724683761597,0.5400232076644897,0.3844868838787079,0.7351484894752502,0.8332735300064087,0.6888169646263123,0.7506988048553467,0.39066892862319946,0.2527129650115967,0.4614085555076599,0.1811048686504364,0.5429336428642273,0.24213889241218567,0.34885838627815247,0.5549913644790649,0.4458516538143158,0.9988922476768494,0.0006105402717366815,0.6800850033760071,0.5558145046234131,0.4335840046405792
0.4427756369113922,0.5314475893974304,0.39549994468688965,0.7336235642433167,0.8294249773025513,0.6909357905387878,0.746889591217041,0.3868262469768524,0.26586809754371643,0.46724003553390503,0.17646217346191406,0.5491598844528198,0.2431766837835312,0.32896801829338074,0.574282705783844,0.44624748826026917,0.9989242553710938,0.0,0.6750345826148987,0.5700119137763977,0.4443012773990631
0.44188258051872253,0.5454605221748352,0.39472517371177673,0.7341540455818176,0.8239244222640991,0.6754196882247925,0.7412965893745422,0.3820778429508209,0.2667267918586731,0.47518402338027954,0.16953721642494202,0.5675597786903381,0.24247457087039948,0.3021470904350281,0.5808442831039429,0.45000308752059937,1.0,0.0005940251285210252,0.6686110496520996,0.586423933506012,0.45698118209838867
0.4483581483364105,0.5507341623306274,0.39947906136512756,0.7315687537193298,0.8162736892700195,0.6678439378738403,0.7356356978416443,0.3709579110145569,0.27450963854789734,0.48761796951293945,0.15684357285499573,0.5854810476303101,0.23243768513202667,0.2815491259098053,0.5951919555664062,0.45466089248657227,0.9965588450431824,0.0010705228196457028,0.6605585217475891,0.6013988852500916,0.468793660402298
0.44989219307899475,0.5577923655509949,0.39604970812797546,0.7335733771324158,0.8150474429130554,0.6663733720779419,0.725323498249054,0.37164872884750366,0.29229801893234253,0.49650442600250244,0.14836302399635315,0.6074457764625549,0.23889978229999542,0.26736825704574585,0.6077991724014282,0.45834803581237793,0.9979366064071655,0.001624818192794919,0.6525029540061951,0.6154578924179077,0.48038530349731445
0.4496701657772064,0.5578347444534302,0.3813224136829376,0.7260545492172241,0.8032034635543823,0.6610251069068909,0.7233443856239319,0.36959049105644226,0.30477169156074524,0.49728649854660034,0.13751214742660522,0.6287252902984619,0.23529905080795288,0.2546128034591675,0.6113224625587463,0.45914238691329956,0.9939815998077393,0.009493391960859299,0.6436929702758789,0.6302025318145752,0.49343380331993103
0.4503188133239746,0.5746083855628967,0.3743093013763428,0.7237301468849182,0.7967438101768494,0.6437029838562012,0.7178688049316406,0.35709038376808167,0.3199577033519745,0.49957728385925293,0.13894590735435486,0.6509107947349548,0.2257862091064453,0.24040843546390533,0.6214575171470642,0.46178704500198364,0.9918084740638733,0.01224492583423853,0.6335234642028809,0.6437639594078064,0.506245493888855
0.4566253125667572,0.5729508996009827,0.3930969834327698,0.7175461649894714,0.7926263809204102,0.6343229413032532,0.7181983590126038,0.3559928238391876,0.33572015166282654,0.5017145872116089,0.13055914640426636,0.672280490398407,0.22209720313549042,0.22147251665592194,0.6217626333236694,0.46550431847572327,0.9812079668045044,0.0196196548640728,0.6242154836654663,0.657173216342926,0.5183328986167908
0.46044301986694336,0.5800173282623291,0.3954453766345978,0.7150630354881287,0.786192774772644,0.6284291744232178,0.7108864784240723,0.35758453607559204,0.35119199752807617,0.5069648027420044,0.12937495112419128,0.680789053440094,0.2265820950269699,0.20247922837734222,0.6163843274116516,0.4692876636981964,0.972578763961792,0.025148587301373482,0.6141420602798462,0.6706783771514893,0.5314915180206299
0.4635591506958008,0.5903341174125671,0.4048515558242798,0.7188200950622559,0.7771746516227722,0.6179903745651245,0.7006354928016663,0.348245233297348,0.3631953001022339,0.5089974403381348,0.13121700286865234,0.6952309012413025,0.2234346717596054,0.1938144713640213,0.6161056756973267,0.47528398036956787,0.9645676016807556,0.030703900381922722,0.6032449007034302,0.6847823262214661,0.5440337061882019
0.46734341979026794,0.5979174375534058,0.40765008330345154,0.7227984070777893,0.7665157914161682,0.6066569685935974,0.6944660544395447,0.3618945777416229,0.37474724650382996,0.5118710398674011,0.1368398666381836,0.6970514059066772,0.2176228016614914,0.18303702771663666,0.6308847665786743,0.4768259525299072,0.9561769366264343,0.03610476106405258,0.5908495783805847,0.6974025368690491,0.556168794631958
0.46900674700737,0.5971047282218933,0.4163622260093689,0.7223542332649231,0.7577978372573853,0.6079901456832886,0.6920413970947266,0.3674379885196686,0.3814089894294739,0.5123534798622131,0.13743363320827484,0.7137810587882996,0.21737560629844666,0.16394656896591187,0.6435691714286804,0.479902446269989,0.9469208121299744,0.044848792254924774,0.5779651403427124,0.709455132484436,0.5684562921524048
0.4757412374019623,0.5963223576545715,0.39621856808662415,0.7308503985404968,0.7428134679794312,0.6090521812438965,0.6905175447463989,0.3594784736633301,0.39695999026298523,0.5155755877494812,0.13740870356559753,0.7208268642425537,0.21480987966060638,0.14880579710006714,0.646750807762146,0.4848300516605377,0.9379693865776062,0.05408100783824921,0.5645724534988403,0.7198967933654785,0.5799306631088257
0.4814833402633667,0.6019483208656311,0.38876786828041077,0.7368999123573303,0.7254164218902588,0.5918193459510803,0.6821182370185852,0.3629069924354553,0.414772093296051,0.5208122730255127,0.1345277577638626,0.7384371757507324,0.20652368664741516,0.1356295794248581,0.6452922224998474,0.48832404613494873,0.93173748254776,0.06514780223369598,0.551272988319397,0.7289916276931763,0.5915276408195496
0.4860265552997589,0.6040919423103333,0.39140963554382324,0.7362959980964661,0.7213324308395386,0.6006499528884888,0.6829581260681152,0.35720324516296387,0.4362078905105591,0.5178991556167603,0.13941000401973724,0.7463415265083313,0.20326513051986694,0.12493665516376495,0.6398635506629944,0.49310675263404846,0.9191298484802246,0.07260775566101074,0.5385912656784058,0.7389264702796936,0.6026278734207153
0.49290594458580017,0.5966275930404663,0.3964371383190155,0.7377704381942749,0.721030056476593,0.5937637090682983,0.6834373474121094,0.36513587832450867,0.46064871549606323,0.5149369835853577,0.1411701738834381,0.7460002899169922,0.20462407171726227,0.11043940484523773,0.6427568793296814,0.49750980734825134,0.905441164970398,0.0841735377907753,0.5254651308059692,0.7484222650527954,0.6132555603981018
0.49706369638442993,0.59979248046875,0.37914249300956726,0.7378761172294617,0.7034327983856201,0.5880209803581238,0.682012140750885,0.3635176420211792,0.48015305399894714,0.5137521028518677,0.13314980268478394,0.7435950636863708,0.20073087513446808,0.09068147838115692,0.6496038436889648,0.5037742853164673,0.890672504901886,0.09484412521123886,0.5104448795318604,0.7556607723236084,0.6238440871238708
0.5048376321792603,0.6104763746261597,0.4020179212093353,0.7418643832206726,0.6935169100761414,0.5726096630096436,0.6837437152862549,0.374014675617218,0.4974336624145508,0.5094636082649231,0.14306731522083282,0.7524660229682922,0.1959310621023178,0.07455426454544067,0.6397702693939209,0.5089527368545532,0.8747003078460693,0.10852602124214172,0.49677515029907227,0.7621127963066101,0.6340616345405579
0.5095492005348206,0.6103838682174683,0.4083975851535797,0.7433075308799744,0.6842442750930786,0.5682684779167175,0.6719008088111877,0.38389262557029724,0.5122284293174744,0.5025807619094849,0.14966624975204468,0.7574574947357178,0.19036081433296204,0.0631609857082367,0.6413500308990479,0.5093740224838257,0.857292890548706,0.12130478024482727,0.4831514060497284,0.7676851749420166,0.643372654914856
0.5198426246643066,0.6022164225578308,0.41136735677719116,0.7479124069213867,0.6795749068260193,0.5484973192214966,0.6649985313415527,0.39038321375846863,0.5205360651016235,0.49559661746025085,0.14863190054893494,0.7474094033241272,0.18688969314098358,0.05898093804717064,0.6430162787437439,0.5142731070518494,0.846568763256073,0.1327291876077652,0.46825551986694336,0.7717102766036987,0.6520222425460815
0.5229021310806274,0.6108808517456055,0.4141269028186798,0.7534908652305603,0.6644887924194336,0.5419207215309143,0.6657388806343079,0.4020863175392151,0.5402700304985046,0.4886615574359894,0.17239917814731598,0.7526224255561829,0.1796294003725052,0.06130671501159668,0.6231678128242493,0.5208439230918884,0.8301236033439636,0.14722266793251038,0.45374467968940735,0.7759636640548706,0.6597798466682434
0.5233311653137207,0.6129556894302368,0.4039887487888336,0.7635288238525391,0.6547328233718872,0.542288064956665,0.6597633957862854,0.3972793221473694,0.5688138604164124,0.4819524586200714,0.18244944512844086,0.7483904361724854,0.17747680842876434,0.053140491247177124,0.6110227704048157,0.5252178907394409,0.8105843663215637,0.16554734110832214,0.44024765491485596,0.778205931186676,0.6667009592056274
0.5244607925415039,0.6058999300003052,0.4304417669773102,0.7716296315193176,0.6541206240653992,0.5227364301681519,0.6581621170043945,0.3933209776878357,0.5833207964897156,0.48103970289230347,0.1803562194108963,0.763091504573822,0.1725398451089859,0.041906218975782394,0.6082858443260193,0.5271489024162292,0.7938086986541748,0.18260252475738525,0.42717647552490234,0.779163658618927,0.673147439956665
0.5290721654891968,0.6055666208267212,0.441801518201828,0.7726995348930359,0.6356375217437744,0.515063464641571,0.6584375500679016,0.41605237126350403,0.6035094857215881,0.4799221456050873,0.19351930916309357,0.7732166051864624,0.16310879588127136,0.041834764182567596,0.6100897789001465,0.5307945609092712,0.7767108082771301,0.19558347761631012,0.41387155652046204,0.779542088508606,0.6797740459442139
0.5410438776016235,0.6071760654449463,0.4603439271450043,0.779517412185669,0.6286562085151672,0.510891854763031,0.6547287106513977,0.43494343757629395,0.6262936592102051,0.4690142273902893,0.20930416882038116,0.7706512212753296,0.16074413061141968,0.04044729098677635,0.5985748171806335,0.5351454019546509,0.7602974772453308,0.21259519457817078,0.39938363432884216,0.7793400883674622,0.685176432132721
0.5460941791534424,0.6021084189414978,0.46646085381507874,0.7816777229309082,0.612248420715332,0.505990743637085,0.6526503562927246,0.44497740268707275,0.6494374871253967,0.46497511863708496,0.21979348361492157,0.7645098567008972,0.15484172105789185,0.0357716865837574,0.578300952911377,0.5367070436477661,0.7440569400787354,0.2272297739982605,0.38586872816085815,0.7778674960136414,0.690667986869812
0.5480310916900635,0.6009802222251892,0.46616002917289734,0.7933533191680908,0.6039098501205444,0.5003828406333923,0.6532050967216492,0.4517630934715271,0.6693917512893677,0.45655596256256104,0.23947888612747192,0.757517397403717,0.1483103334903717,0.027984945103526115,0.564796507358551,0.540721595287323,0.7275388836860657,0.24405616521835327,0.3719656467437744,0.7756052613258362,0.6945475339889526
0.5521323084831238,0.5912665128707886,0.46507033705711365,0.7953218221664429,0.5882163643836975,0.4904136657714844,0.6506467461585999,0.4746449291706085,0.6898535490036011,0.45148512721061707,0.25818970799446106,0.7554211020469666,0.1409076452255249,0.03300203010439873,0.5506542325019836,0.5434979200363159,0.7099460959434509,0.2618471086025238,0.35941651463508606,0.772310197353363,0.6964072585105896
0.5550875663757324,0.5980956554412842,0.47445133328437805,0.8010429739952087,0.5755608081817627,0.4929112195968628,0.6474406123161316,0.4868653416633606,0.7024414539337158,0.4419965147972107,0.2678344249725342,0.743412971496582,0.1408698707818985,0.03557413071393967,0.5537441372871399,0.5442540645599365,0.6920377612113953,0.27452871203422546,0.34731733798980713,0.767292320728302,0.6978448033332825
0.5635226368904114,0.5842719078063965,0.48397135734558105,0.8070388436317444,0.5689997673034668,0.4889177083969116,0.6443136930465698,0.4952213168144226,0.7164971828460693,0.4329112768173218,0.2762874960899353,0.7294909358024597,0.1436397284269333,0.044617388397455215,0.5509141683578491,0.5490641593933105,0.6707198619842529,0.290781706571579,0.33547675609588623,0.7628147006034851,0.7009152173995972
