hall_0_x,hall_0_y,hall_0_z,hall_1_x,hall_1_y,hall_1_z,hall_2_x,hall_2_y,hall_2_z,hall_3_x,hall_3_y,hall_3_z,hall_4_x,hall_4_y,hall_4_z,euler_roll,euler_pitch,euler_yaw,gyro_x,gyro_y,gyro_z
0.5804433226585388,0.5405194163322449,0.4211053252220154,0.8271203637123108,0.39660128951072693,0.47006142139434814,0.8522080779075623,0.5002830028533936,0.21244563162326813,0.2957325577735901,0.6753711104393005,0.5640621185302734,0.11562046408653259,0.2976067066192627,0.4551847279071808,0.35786014795303345,0.7609467506408691,0.4500701129436493,0.23967795073986053,0.2767747938632965,0.3095545470714569
0.5857148170471191,0.5343696475028992,0.4149436056613922,0.818000853061676,0.3811570405960083,0.46699729561805725,0.8553174734115601,0.5000149011611938,0.22212769091129303,0.29826000332832336,0.6734143495559692,0.5983622670173645,0.1303257793188095,0.30598190426826477,0.46769243478775024,0.3556315302848816,0.7499898672103882,0.45821043848991394,0.2425447255373001,0.2729710042476654,0.30741387605667114
0.5872809290885925,0.5207129716873169,0.41635164618492126,0.8055576682090759,0.38777419924736023,0.4502926468849182,0.8609648942947388,0.5000152587890625,0.22761571407318115,0.2982322871685028,0.6596698760986328,0.6280086040496826,0.14171373844146729,0.3107294738292694,0.47702693939208984,0.35483598709106445,0.7408533692359924,0.46842920780181885,0.24541796743869781,0.27078813314437866,0.30716121196746826
0.5871005654335022,0.5065171718597412,0.42158642411231995,0.7912099957466125,0.38743656873703003,0.4541391134262085,0.8721280097961426,0.5126392841339111,0.22959493100643158,0.3000694215297699,0.6643050909042358,0.6525323987007141,0.14589425921440125,0.32706594467163086,0.47339218854904175,0.3528198301792145,0.7271826267242432,0.4791920483112335,0.24941332638263702,0.2682432234287262,0.3065517842769623
0.5829541683197021,0.49299687147140503,0.43605053424835205,0.7846739292144775,0.3906670808792114,0.4553528130054474,0.8743427991867065,0.5141466856002808,0.22661975026130676,0.30502849817276,0.6660079956054688,0.6711294651031494,0.15681901574134827,0.3376878499984741,0.4695263206958771,0.3489193916320801,0.722191572189331,0.48453232645988464,0.25449642539024353,0.26703906059265137,0.30713656544685364
0.5850412845611572,0.4722174406051636,0.4336879849433899,0.7808149456977844,0.4079190492630005,0.45802611112594604,0.8766809701919556,0.5155823826789856,0.223249152302742,0.3119603097438812,0.6713770031929016,0.6974255442619324,0.1685560643672943,0.3521358072757721,0.49048706889152527,0.3502163290977478,0.7142971754074097,0.4931453466415405,0.25988373160362244,0.2668672800064087,0.3090140223503113
0.5826776027679443,0.4554632306098938,0.4431900382041931,0.7717836499214172,0.4099068343639374,0.4635293781757355,0.8786603212356567,0.5264236330986023,0.23797786235809326,0.3183079957962036,0.6612170338630676,0.7248302698135376,0.17866367101669312,0.3732881247997284,0.49988308548927307,0.352459579706192,0.7072049379348755,0.49763017892837524,0.2669595777988434,0.2681790590286255,0.3110410273075104
0.5828682780265808,0.44342678785324097,0.44464200735092163,0.7616453766822815,0.4127519726753235,0.45737481117248535,0.8884037733078003,0.526162326335907,0.2476978451013565,0.32190608978271484,0.6542672514915466,0.7384536862373352,0.18541885912418365,0.3826923966407776,0.5196744799613953,0.35124868154525757,0.698079526424408,0.5041568875312805,0.2734234631061554,0.27142706513404846,0.31474658846855164
0.5869690775871277,0.427480548620224,0.44489526748657227,0.7546096444129944,0.4193701446056366,0.4526061415672302,0.8893691897392273,0.5322859287261963,0.24889810383319855,0.3249203860759735,0.6531815528869629,0.7543624043464661,0.20314957201480865,0.40293192863464355,0.5230849981307983,0.3531785309314728,0.6927940249443054,0.506603479385376,0.28140977025032043,0.27469566464424133,0.3191649317741394
0.5838716626167297,0.40099599957466125,0.4464046359062195,0.744417667388916,0.43452462553977966,0.44758960604667664,0.8869975209236145,0.537054717540741,0.26017001271247864,0.33362627029418945,0.6557619571685791,0.7840442061424255,0.2089824229478836,0.413445383310318,0.5323606729507446,0.35320353507995605,0.6866377592086792,0.5157243013381958,0.28959110379219055,0.2795732319355011,0.3247562050819397
0.5835447311401367,0.39301934838294983,0.4422438144683838,0.7338272333145142,0.439057856798172,0.4417184889316559,0.8846591114997864,0.5459926724433899,0.2649795711040497,0.33761411905288696,0.6477403044700623,0.8008768558502197,0.22053641080856323,0.42642003297805786,0.5538407564163208,0.3572806417942047,0.6802966594696045,0.5157333016395569,0.29928675293922424,0.28532713651657104,0.33067843317985535
0.5820518136024475,0.39389148354530334,0.452062726020813,0.726377546787262,0.4450663626194,0.44922882318496704,0.8842107057571411,0.5536435842514038,0.2844376266002655,0.33907487988471985,0.6380353569984436,0.8212488889694214,0.23332446813583374,0.4443087875843048,0.5668058395385742,0.3603949546813965,0.6715999245643616,0.5173099040985107,0.31087127327919006,0.2914001941680908,0.3378787040710449
0.5786272883415222,0.3799973726272583,0.4550865590572357,0.7205586433410645,0.46529126167297363,0.4584729075431824,0.8832828402519226,0.5590041875839233,0.3040781319141388,0.34308284521102905,0.6257416605949402,0.8322920203208923,0.23958493769168854,0.45707932114601135,0.5591212511062622,0.3652755320072174,0.6620078682899475,0.5172846913337708,0.3204057514667511,0.29884108901023865,0.3463916778564453
0.575492799282074,0.3653368353843689,0.46273261308670044,0.7131291627883911,0.4784572124481201,0.45846596360206604,0.8763465881347656,0.5591694116592407,0.314820796251297,0.34371572732925415,0.6181535720825195,0.8456394672393799,0.2496674358844757,0.4673745930194855,0.5573732256889343,0.36978936195373535,0.6510613560676575,0.5168759822845459,0.33193227648735046,0.3067956566810608,0.3551652729511261
0.572267472743988,0.36218252778053284,0.47901928424835205,0.7032714486122131,0.47514426708221436,0.4766181707382202,0.8768993020057678,0.5665531158447266,0.31860223412513733,0.34600549936294556,0.6019299626350403,0.8620165586471558,0.26149141788482666,0.47116249799728394,0.5634428858757019,0.3727049231529236,0.6451766490936279,0.5126727223396301,0.34225815534591675,0.3152478039264679,0.3646421730518341
0.5710870027542114,0.35841044783592224,0.4981047511100769,0.6964210271835327,0.49552619457244873,0.4803644120693207,0.8733387589454651,0.5835970640182495,0.3348150849342346,0.35137051343917847,0.5935898423194885,0.8679330945014954,0.2746366858482361,0.48806196451187134,0.5701115131378174,0.3779478967189789,0.6389580965042114,0.5121378302574158,0.3542986512184143,0.32571908831596375,0.37536945939064026
0.5683446526527405,0.34630322456359863,0.5033082962036133,0.6866907477378845,0.5150884389877319,0.4768911302089691,0.873191237449646,0.5943928360939026,0.33923032879829407,0.3562900125980377,0.5877891778945923,0.8703015446662903,0.28284844756126404,0.5029991269111633,0.5738881230354309,0.38127437233924866,0.6328898072242737,0.5098603367805481,0.36621925234794617,0.33730390667915344,0.38491615653038025
0.564832866191864,0.34148478507995605,0.5171070694923401,0.6782441139221191,0.5441447496414185,0.48156771063804626,0.871982991695404,0.5969319939613342,0.3584681749343872,0.3584577441215515,0.5766543745994568,0.8772735595703125,0.2861984968185425,0.515570878982544,0.579564094543457,0.389132559299469,0.6256672739982605,0.502892255783081,0.3802550733089447,0.34947624802589417,0.3964706063270569
0.5596521496772766,0.3267075717449188,0.522990882396698,0.6738469004631042,0.5601680278778076,0.4830327332019806,0.8643490076065063,0.6016364097595215,0.3828302025794983,0.3640453517436981,0.5661001205444336,0.8751699328422546,0.2950981557369232,0.5358656048774719,0.5681354403495789,0.3953304886817932,0.6173211932182312,0.4976712167263031,0.3936527371406555,0.36243072152137756,0.40869563817977905
0.5529535412788391,0.3066985011100769,0.5253781676292419,0.6695235967636108,0.5695340633392334,0.481244295835495,0.8632096648216248,0.6099660992622375,0.4019591808319092,0.3618060052394867,0.5516387820243835,0.8680274486541748,0.3059450387954712,0.5360159277915955,0.5631557106971741,0.4009406864643097,0.6101985573768616,0.49020129442214966,0.4074416160583496,0.37630680203437805,0.4218618869781494
0.5466389060020447,0.30903729796409607,0.5489224195480347,0.6694839596748352,0.578194797039032,0.4891883432865143,0.8556556105613708,0.6213440895080566,0.43211933970451355,0.370013028383255,0.5326523780822754,0.8727014064788818,0.3091965615749359,0.5437519550323486,0.5781750679016113,0.407760351896286,0.6054911613464355,0.48454952239990234,0.42070868611335754,0.3897215723991394,0.43536821007728577
0.5391620397567749,0.29950079321861267,0.5478226542472839,0.6629597544670105,0.609053373336792,0.4896865487098694,0.852383017539978,0.6285014748573303,0.45972421765327454,0.37612631916999817,0.5303493142127991,0.8705460429191589,0.3143063485622406,0.5514200925827026,0.5749788880348206,0.41228199005126953,0.6030802726745605,0.4745336174964905,0.4340273439884186,0.4040799140930176,0.4493979215621948
0.529786229133606,0.2930625081062317,0.5457251071929932,0.6627010107040405,0.6192646622657776,0.5118575692176819,0.842164933681488,0.634986162185669,0.4719356298446655,0.38146716356277466,0.5127533674240112,0.8570345640182495,0.3208344578742981,0.5553292036056519,0.5641578435897827,0.42090684175491333,0.5977442860603333,0.46441650390625,0.4480953514575958,0.4189285933971405,0.4636760652065277
0.5235356092453003,0.2757425010204315,0.545849621295929,0.6622352600097656,0.6374668478965759,0.5043653845787048,0.8380603790283203,0.6534549593925476,0.4890401363372803,0.38792145252227783,0.4961814880371094,0.859611988067627,0.3317529559135437,0.5638510584831238,0.5476464629173279,0.42914414405822754,0.5908398032188416,0.4535481631755829,0.4616504907608032,0.434786856174469,0.4784078299999237
0.520526111125946,0.2716040015220642,0.551763653755188,0.662205696105957,0.6625762581825256,0.5308729410171509,0.8285916447639465,0.6599257588386536,0.5117605328559875,0.38730132579803467,0.4833252727985382,0.8526926636695862,0.3320390284061432,0.5702567100524902,0.5635724663734436,0.43753713369369507,0.5901832580566406,0.4429979920387268,0.47504761815071106,0.4514186978340149,0.49289605021476746
0.5149911642074585,0.27590110898017883,0.5608287453651428,0.6640212535858154,0.6827746629714966,0.5279752612113953,0.819097638130188,0.6690230369567871,0.5371758937835693,0.3877815306186676,0.4690881669521332,0.8424524664878845,0.33762404322624207,0.5738525986671448,0.5454016327857971,0.4432881772518158,0.5877588391304016,0.4315387010574341,0.48957616090774536,0.46813490986824036,0.5073195695877075
0.511995792388916,0.2667447030544281,0.5731930136680603,0.6670284867286682,0.7037606239318848,0.5264819860458374,0.8183979392051697,0.6704434752464294,0.5541961789131165,0.3932141363620758,0.4555244445800781,0.8343203663825989,0.33887872099876404,0.5750577449798584,0.5484601259231567,0.4525962769985199,0.5836338996887207,0.4166814684867859,0.5038800835609436,0.4854627251625061,0.5219485759735107
0.5115871429443359,0.26089438796043396,0.5660821199417114,0.6711887717247009,0.7243824005126953,0.5275506973266602,0.8065512776374817,0.6735182404518127,0.5714482069015503,0.3898871839046478,0.4349971413612366,0.8364911079406738,0.3449459671974182,0.57415771484375,0.5428721904754639,0.4618341624736786,0.5818884372711182,0.40626394748687744,0.5182355046272278,0.5024970173835754,0.5366730093955994
0.5105436444282532,0.25381308794021606,0.5599274039268494,0.6708366274833679,0.7343987822532654,0.537914514541626,0.791007399559021,0.6802273988723755,0.5852159261703491,0.3909948766231537,0.42444536089897156,0.8283436298370361,0.34930261969566345,0.5780622959136963,0.5451310276985168,0.46898844838142395,0.5784778594970703,0.3935868740081787,0.5299437642097473,0.5203835964202881,0.5528033375740051
0.5072818398475647,0.2610827684402466,0.5879711508750916,0.6677924394607544,0.7549452185630798,0.5476455092430115,0.780286431312561,0.6833820343017578,0.6071394085884094,0.3904010057449341,0.3997298777103424,0.7983946204185486,0.3508397936820984,0.5787214636802673,0.545535147190094,0.4785294234752655,0.5805519819259644,0.3784235119819641,0.5435479283332825,0.5372053980827332,0.5672926902770996
